Folder: CAS-ADS-2025/Module-2

Note: README.md
# CAS-ADS-2025
Repository of the Applied Data Science CAS

File: HZM_HSI-XRF_1mm_calibrated_06-05-2024.csv
Depth_mm_HSI_composite;Core.Y..mm.;R660R670;R570R630;Rmean;RABD620;RABD671;RABD715;RABD845;RABA620...RABD.;RABA670...RABD.;RABA715...RABD.;RABA840...RABD.;RABD671cal;RABD845cal;sample ID;comp_depth_mm;position (mm);Mg;Al;Si;P;S;Ar;K;Ca;Ti;Mn;Fe;Ni;Cu;Zn;Ga;Se;Br;Rb;Sr;Y;Zr;Sn;Sb;Cs;Ba;La;Pr;Sm;Ta;Pb;Bi;Cr kb;S1;Ca ka Cr ka;W la;W lb1;W lb2;W La scat;W Lb1 scat;d1;d2;d3;Ca ka + Fe kb?;Ca ka + Fe ka;Fe a+a;Fe a+ Cr a;s2;Cr inc;Cr coh;Cr cor/inc;Dt;filename;comp_round_depth;depth_VT22;mean_VT22;min_VT22;max_VT22;error_VT22
0;0;0.993513;0.926673;0.097073;1.00315;1.02778;1.00251;0.988419;1.0236;1.02588;1.01034;1.0055;10.8972;0;54247;10989;30.6;0;60;671;63;80;893;4873;9082;4251;1579;25988;85;81;159;49;0;50;219;271;50;188;50;71;0;325;45;123;79;108;87;110;2652;407;0;373;159;103;123;51;24;102;156;0;0;0;27;0;10671;15601;1.462;0.175;L:\#Projekte\Holzmaar 2019 - HZM19\XRF\HMZ19\HZM19-10\HZM19-10-7\HZM19_10_07_Cr_200um_foil\XRF data\L000003.spe;109890;10989;11750;11575;11944;184.5
131;131;0.996418;0.95421;0.0924235;1.00202;1.01785;1.00271;0.989354;1.021;1.02038;1.01073;1.00767;8.02882;0;54903;11120;161.6;0;104;1123;93;239;1104;7605;4676;5615;2164;34152;78;88;167;80;17;0;292;305;73;261;107;0;0;396;89;88;155;80;99;0;2960;608;0;297;211;61;79;78;0;64;33;98;25;134;155;0;10555;18243;1.72838;0.193;L:\#Projekte\Holzmaar 2019 - HZM19\XRF\HMZ19\HZM19-10\HZM19-10-7\HZM19_10_07_Cr_200um_foil\XRF data\L000658.spe;111200;11120;12566;12393;12683;145
262;262;0.987399;0.930614;0.108837;1.00584;1.03881;1.00336;1.00038;1.02396;1.03392;1.0097;1.00685;14.0818;1.9168;55559;11251;292.6;15;85;1011;50;142;1117;4570;6465;3725;1293;15052;96;56;98;0;60;41;201;223;40;318;120;85;55;347;82;182;98;202;71;22;3242;262;84;371;234;126;85;64;0;112;97;104;0;70;33;89;13244;17970;1.35684;0.194;L:\#Projekte\Holzmaar 2019 - HZM19\XRF\HMZ19\HZM19-10\HZM19-10-7\HZM19_10_07_Cr_200um_foil\XRF data\L001313.spe;112510;11251;12720;12583;12831;124
394;394;0.987853;0.928282;0.111672;1.00741;1.04109;1.00289;0.99455;1.02008;1.03207;1.00762;1.00635;14.742;0;56219;11383;424.6;18;87;1018;8;158;1079;5073;13617;2865;886;21330;77;92;111;0;0;0;182;295;49;309;38;171;0;257;90;152;94;143;22;85;3106;353;81;370;164;39;110;122;20;74;69;0;0;8;25;0;11176;16831;1.50599;0.19;L:\#Projekte\Holzmaar 2019 - HZM19\XRF\HMZ19\HZM19-10\HZM19-10-7\HZM19_10_07_Cr_200um_foil\XRF data\L001973.spe;113830;11383;12879;12780;12954;87
526;526;1.00172;0.916178;0.14934;1.0073;1.06626;1.00143;1.00663;1.0185;1.05458;1.00534;1.01288;22.0125;2.45198;56879;11515;556.6;32;66;1110;0;169;1064;4773;22326;2813;516;13897;58;63;73;0;11;0;208;472;88;353;104;209;33;233;69;171;101;104;0;85;3202;234;95;360;224;69;131;103;104;85;18;0;0;43;8;51;11031;16132;1.46242;0.18;L:\#Projekte\Holzmaar 2019 - HZM19\XRF\HMZ19\HZM19-10\HZM19-10-7\HZM19_10_07_Cr_200um_foil\XRF data\L002633.spe;115150;11515;13005;12976;13038;31
658;658;0.988047;0.92137;0.116224;1.00052;1.01647;1.00095;0.9903;1.0152;1.01817;1.00764;1.00428;7.62952;0;57542;11647;688.6;0;117;1078;0;117;1107;15189;22599;5815;232;11352;21;89;97;20;69;13;340;1672;42;673;169;227;0;314;59;132;24;0;48;10;2561;195;81;320;213;63;108;107;0;0;52;71;0;61;0;50;8569;13736;1.60299;0.171;L:\#Projekte\Holzmaar 2019 - HZM19\XRF\HMZ19\HZM19-10\HZM19-10-7\HZM19_10_07_Cr_200um_foil\XRF data\L003293.spe;116470;11647;13011;12984;13043;29.5
790;10.9114;0.981636;0.925422;0.0987141;1.00791;1.03524;1.00141;0.993377;1.02327;1.03232;1.01006;1.00409;13.052;0;58163;11779;720;13;64;665;0;465;1105;3561;25570;3364;674;20221;94;100;108;66;16;0;146;454;32;185;39;185;0;222;122;82;59;122;69;74;2465;309;0;509;435;158;205;212;74;186;139;0;61;55;98;0;9959;14040;1.40978;0.185;L:\#Projekte\Holzmaar - Diatoms\HZM19-11_Lujan\HZM19_11-07_W_(foil) - xrf\XRF data\L000717.spe;117790;11779;13123;13035;13239;102
922;142.9114;0.997154;0.927928;0.150838;1.00852;1.06798;1.00074;1.01824;1.01692;1.05599;1.00422;1.02394;22.5099;3.44684;58295;11911;852;24;57;804;0;338;1229;2847;48239;1795;433;12384;83;77;24;73;91;0;153;764;44;137;68;596;11;166;53;100;41;182;30;41;2312;164;13;488;398;157;120;143;46;133;140;72;70;98;141;51;9810;13184;1.34393;0.192;L:\#Projekte\Holzmaar - Diatoms\HZM19-11_Lujan\HZM19_11-07_W_(foil) - xrf\XRF data\L000849.spe;119110;11911;13312;13165;13471;153
1054;274.9114;0.991875;0.903427;0.140177;1.00517;1.05563;1.00026;1.00964;1.0141;1.04592;1.00405;1.01761;18.9424;2.71024;58427;12043;984;0;33;898;0;400;1112;3294;48487;2093;672;15123;107;80;84;19;90;13;126;750;36;147;55;489;0;183;53;116;55;165;104;69;2369;245;133;428;385;159;150;211;25;103;26;69;79;23;150;13;8889;13225;1.48779;0.191;L:\#Projekte\Holzmaar - Diatoms\HZM19-11_Lujan\HZM19_11-07_W_(foil) - xrf\XRF data\L000981.spe;120430;12043;13496;13329;13660;165.5
1186;104.8962;1.00118;0.925396;0.154294;1.00666;1.06579;1.00234;0.991255;1.02121;1.05239;1.00488;1.00443;21.8761;0;58559;12175;175;0;45;1327;0;241;1080;2253;45250;1447;687;6558;71;27;65;0;111;25;64;633;63;118;29;386;0;164;70;133;0;47;15;0;2852;49;61;94;0;0;6;0;0;0;0;103;0;16;0;18;10198;15619;1.53157;0.181;L:\#Projekte\Holzmaar 2019 - HZM19\XRF\HMZ19\HZM19-10\HZM19-10-8\HZM19-10-8\XRF data\L000165.spe;121750;12175;13660;13488;13814;163
1318;236.8962;0.987009;0.906466;0.145992;1.00635;1.04443;1.00286;0.992488;1.02133;1.03509;1.00606;1.00557;15.7051;0;58691;12307;307;0;89;1237;0;183;1085;3384;71076;2565;811;5895;98;65;100;0;12;33;84;818;49;105;57;540;0;109;13;138;0;0;96;112;2263;116;118;45;0;0;30;5;0;22;117;8;34;84;89;73;9511;14033;1.47545;0.196;L:\#Projekte\Holzmaar 2019 - HZM19\XRF\HMZ19\HZM19-10\HZM19-10-8\HZM19-10-8\XRF data\L000297.spe;123070;12307;13822;13639;13993;177
1450;368.8962;0.988122;0.911202;0.133832;1.00649;1.03537;1.00225;0.991513;1.02074;1.02979;1.00768;1.00419;13.0893;0;58823;12439;439;0;91;1305;0;249;1218;4351;48700;3945;655;8511;50;64;29;0;5;27;152;591;76;178;105;337;44;153;42;141;47;15;55;22;2431;119;30;51;0;0;0;0;14;52;81;14;80;52;64;86;9142;13949;1.52581;0.178;L:\#Projekte\Holzmaar 2019 - HZM19\XRF\HMZ19\HZM19-10\HZM19-10-8\HZM19-10-8\XRF data\L000429.spe;124390;12439;13965;13773;14163;195
1582;500.8962;0.990005;0.909558;0.11512;1.01109;1.05011;1.00212;0.988471;1.02588;1.04177;1.00707;1.00503;17.3485;0;58955;12571;571;0;34;1248;0;311;1190;3920;40027;3272;1353;9359;79;84;108;0;0;0;187;529;21;181;53;287;31;154;38;151;26;37;119;51;2576;126;91;103;0;0;8;0;6;171;76;0;33;41;114;76;9181;15500;1.68827;0.178;L:\#Projekte\Holzmaar 2019 - HZM19\XRF\HMZ19\HZM19-10\HZM19-10-8\HZM19-10-8\XRF data\L000561.spe;125710;12571;14110;13910;14324;207
1714;632.8962;0.99649;0.895918;0.140601;1.01051;1.0649;1.00251;0.99161;1.03167;1.05206;1.00649;1.00415;21.6208;0;59087;12703;703;0;52;937;0;174;1173;1811;69793;1571;1228;4356;123;35;94;23;41;0;55;802;0;200;20;422;0;111;40;80;0;0;30;0;2160;60;74;71;0;47;25;0;0;20;46;150;24;9;70;28;10119;13886;1.37227;0.193;L:\#Projekte\Holzmaar 2019 - HZM19\XRF\HMZ19\HZM19-10\HZM19-10-8\HZM19-10-8\XRF data\L000693.spe;127030;12703;14254;14058;14474;208
1846;764.8962;0.993605;0.88453;0.15558;1.00753;1.06375;1.00187;0.991099;1.02086;1.04993;1.00455;1.00435;21.2879;0;59219;12835;835;5;48;1060;0;246;1191;2979;92173;2195;505;6286;160;31;28;0;19;36;126;848;75;192;48;767;0;106;29;147;0;82;113;90;2020;123;35;57;0;0;0;0;6;27;34;0;96;96;49;78;8357;11892;1.423;0.203;L:\#Projekte\Holzmaar 2019 - HZM19\XRF\HMZ19\HZM19-10\HZM19-10-8\HZM19-10-8\XRF data\L000825.spe;128350;12835;14393;14196;14625;214.5
1978;66.7734;0.993776;0.941685;0.148558;0.997092;1.00769;1.00198;0.988524;1.00341;1.01247;1.00944;1.00406;5.09166;0;59351;12967;390;0;193;2438;34;94;1141;10713;3870;9904;605;19917;71;87;128;52;48;28;283;285;21;262;138;22;37;268;43;135;90;105;55;0;2289;307;99;543;462;154;130;112;29;131;93;139;29;78;93;47;6405;13591;2.12194;0.154;L:\#Projekte\Holzmaar - Diatoms\HZM19-11_Lujan\HZM19_11_08_W\HZM19-11-8\HZM19_11_08_lujan\XRF data\L000190.spe;129670;12967;14524;14321;14772;225.5
2110;198.7734;0.993438;0.925188;0.169108;0.995919;1.00299;1.00074;0.991867;1.00119;1.00868;1.00865;1.00459;3.73627;0;59483;13099;522;0;193;2229;47;65;1161;11364;6734;9709;1339;27773;45;74;119;35;33;0;361;269;42;232;144;36;0;368;91;62;112;82;10;67;2226;406;94;438;395;124;140;128;22;126;37;0;0;36;92;0;6684;13192;1.97367;0.165;L:\#Projekte\Holzmaar - Diatoms\HZM19-11_Lujan\HZM19_11_08_W\HZM19-11-8\HZM19_11_08_lujan\XRF data\L000322.spe;130990;13099;14650;14424;14920;248
2242;330.7734;0.995763;0.944354;0.148782;0.99848;1.0049;1.00167;0.989698;1.00337;1.00913;1.00846;1.00374;4.28749;0;59615;13231;654;0;217;2372;30;19;1163;11269;5418;9914;718;25034;58;125;121;42;49;0;366;200;0;501;149;38;36;401;61;93;134;95;39;65;2114;377;27;552;400;146;144;115;24;148;216;96;34;21;81;0;6774;13231;1.9532;0.159;L:\#Projekte\Holzmaar - Diatoms\HZM19-11_Lujan\HZM19_11_08_W\HZM19-11-8\HZM19_11_08_lujan\XRF data\L000454.spe;132310;13231;14777;14528;15071;271.5
2374;462.7734;0.987701;0.908127;0.160598;0.997753;1.00307;1.00288;0.983319;1.00372;1.0076;1.00832;1.00247;3.757;0;59747;13363;786;31;203;2380;11;25;1072;9715;11529;8465;1884;34987;17;79;121;105;111;69;281;272;29;536;137;57;0;312;96;107;212;28;83;112;1950;540;17;438;396;182;127;169;38;94;160;0;32;172;69;0;6109;12350;2.02161;0.167;L:\#Projekte\Holzmaar - Diatoms\HZM19-11_Lujan\HZM19_11_08_W\HZM19-11-8\HZM19_11_08_lujan\XRF data\L000586.spe;133630;13363;14902;14635;15213;289
2506;594.7734;0.991227;0.91826;0.103936;0.994508;1.0052;1.00101;0.991335;1.00158;1.01721;1.01195;1.00749;0;0;59879;13495;918;31;181;2188;38;266;1132;10429;3708;9443;414;23130;71;49;144;0;46;0;279;173;17;725;143;34;35;399;145;126;144;185;134;0;2208;370;59;518;462;156;46;76;42;88;126;33;37;0;138;0;6766;13755;2.03296;0.157;L:\#Projekte\Holzmaar - Diatoms\HZM19-11_Lujan\HZM19_11_08_W\HZM19-11-8\HZM19_11_08_lujan\XRF data\L000718.spe;134950;13495;15029;14745;15353;304
2638;726.7734;0.993514;0.951674;0.143149;0.999026;1.0047;1.00169;0.989616;1.00451;1.01074;1.00918;1.00292;4.23012;0;60011;13627;1050;39;255;2516;40;89;1133;12477;3475;11165;450;25208;55;64;142;100;8;0;421;295;93;698;143;42;36;768;136;137;177;83;29;11;2164;477;0;459;383;146;145;206;0;53;167;174;0;41;144;0;6586;14243;2.16262;0.166;L:\#Projekte\Holzmaar - Diatoms\HZM19-11_Lujan\HZM19_11_08_W\HZM19-11-8\HZM19_11_08_lujan\XRF data\L000850.spe;136270;13627;15155;14849;15495;323
2770;858.7734;0.988989;0.942928;0.113574;0.996455;1.00645;1.0016;0.983334;1.0067;1.015;1.01195;1.00307;4.73387;0;60143;13759;1182;8;211;2681;16;0;1110;11544;3922;10021;675;27901;50;34;117;47;46;0;338;297;53;744;125;47;25;261;115;164;184;138;39;13;1999;574;72;390;425;146;123;96;0;109;98;19;0;64;88;35;6574;13109;1.99407;0.156;L:\#Projekte\Holzmaar - Diatoms\HZM19-11_Lujan\HZM19_11_08_W\HZM19-11-8\HZM19_11_08_lujan\XRF data\L000982.spe;137590;13759;15282;14960;15636;338
2833;NA;NA;NA;NA;NA;NA;NA;NA;NA;NA;NA;NA;NA;NA;60206;13822;1245;25;242;2605;50;38;1121;10897;4032;9688;408;25835;59;62;113;0;23;10;309;218;80;777;229;0;29;208;104;151;142;169;60;64;2262;386;30;513;372;156;26;74;0;159;142;65;0;148;70;44;6618;12980;1.96132;0.163;L:\#Projekte\Holzmaar - Diatoms\HZM19-11_Lujan\HZM19_11_08_W\HZM19-11-8\HZM19_11_08_lujan\XRF data\L001045.spe;138220;13822;15342;15016;15706;345